# measurements of the solar spectrum, taken from 
# the Base de donnees Solaire Sol website
#    http://bass2000.obspm.fr/home.php
# this is a small section of the solar spectrum
# in the optical.
#
#   lam         =    wavelength in Angstroms
#   intensity   =    intensity of spectrum in 
#                        arbitrary units
# 
# MWR 2/28/2009
#
#lam     intensity
6545   	9779
6545.002	9777
6545.004	9776
6545.006	9775
6545.008	9773
6545.01	9772
6545.012	9770
6545.014	9769
6545.016	9768
6545.018	9766
6545.02	9765
6545.022	9764
6545.024	9763
6545.026	9763
6545.028	9761
6545.03	9759
6545.032	9758
6545.034	9757
6545.036	9757
6545.038	9756
6545.04	9755
6545.042	9755
6545.044	9755
6545.046	9756
6545.048	9756
6545.05	9756
6545.052	9758
6545.054	9758
6545.056	9759
6545.058	9762
6545.06	9764
6545.062	9766
6545.064	9769
6545.066	9771
6545.068	9775
6545.07	9777
6545.072	9780
6545.074	9783
6545.076	9786
6545.078	9788
6545.08	9791
6545.082	9794
6545.084	9797
6545.086	9798
6545.088	9800
6545.09	9802
6545.092	9805
6545.094	9807
6545.096	9808
6545.098	9810
6545.1	9811
6545.102	9812
6545.104	9813
6545.106	9813
6545.108	9813
6545.11	9814
6545.112	9815
6545.114	9815
6545.116	9815
6545.118	9815
6545.12	9816
6545.122	9817
6545.124	9816
6545.126	9815
6545.128	9814
6545.13	9815
6545.132	9815
6545.134	9815
6545.136	9815
6545.138	9814
6545.14	9814
6545.142	9814
6545.144	9813
6545.146	9813
6545.148	9813
6545.15	9812
6545.152	9812
6545.154	9812
6545.156	9812
6545.158	9811
6545.16	9810
6545.162	9809
6545.164	9810
6545.166	9809
6545.168	9808
6545.17	9808
6545.172	9808
6545.174	9807
6545.176	9807
6545.178	9808
6545.18	9808
6545.182	9809
6545.184	9809
6545.186	9810
6545.188	9811
6545.19	9813
6545.192	9814
6545.194	9815
6545.196	9816
6545.198	9817
6545.2	9817
6545.202	9818
6545.204	9819
6545.206	9819
6545.208	9820
6545.21	9820
6545.212	9820
6545.214	9820
6545.216	9820
6545.218	9819
6545.22	9819
6545.222	9819
6545.224	9818
6545.226	9817
6545.228	9817
6545.23	9817
6545.232	9816
6545.234	9815
6545.236	9815
6545.238	9815
6545.24	9814
6545.242	9813
6545.244	9812
6545.246	9811
6545.248	9811
6545.25	9810
6545.252	9809
6545.254	9808
6545.256	9807
6545.258	9806
6545.26	9805
6545.262	9805
6545.264	9804
6545.266	9803
6545.268	9802
6545.27	9801
6545.272	9799
6545.274	9798
6545.276	9797
6545.278	9795
6545.28	9793
6545.282	9792
6545.284	9790
6545.286	9789
6545.288	9788
6545.29	9788
6545.292	9786
6545.294	9785
6545.296	9784
6545.298	9784
6545.3	9784
6545.302	9783
6545.304	9783
6545.306	9783
6545.308	9784
6545.31	9784
6545.312	9784
6545.314	9785
6545.316	9786
6545.318	9786
6545.32	9787
6545.322	9789
6545.324	9790
6545.326	9792
6545.328	9794
6545.33	9796
6545.332	9799
6545.334	9801
6545.336	9802
6545.338	9805
6545.34	9807
6545.342	9809
6545.344	9810
6545.346	9812
6545.348	9814
6545.35	9815
6545.352	9817
6545.354	9818
6545.356	9819
6545.358	9820
6545.36	9820
6545.362	9820
6545.364	9820
6545.366	9820
6545.368	9821
6545.37	9821
6545.372	9821
6545.374	9820
6545.376	9819
6545.378	9819
6545.38	9819
6545.382	9818
6545.384	9817
6545.386	9816
6545.388	9815
6545.39	9814
6545.392	9813
6545.394	9811
6545.396	9810
6545.398	9809
6545.4	9807
6545.402	9806
6545.404	9805
6545.406	9804
6545.408	9803
6545.41	9802
6545.412	9802
6545.414	9801
6545.416	9801
6545.418	9801
6545.42	9800
6545.422	9800
6545.424	9800
6545.426	9799
6545.428	9799
6545.43	9799
6545.432	9798
6545.434	9797
6545.436	9796
6545.438	9794
6545.44	9794
6545.442	9794
6545.444	9794
6545.446	9793
6545.448	9793
6545.45	9793
6545.452	9794
6545.454	9796
6545.456	9797
6545.458	9798
6545.46	9799
6545.462	9801
6545.464	9803
6545.466	9805
6545.468	9806
6545.47	9807
6545.472	9809
6545.474	9810
6545.476	9811
6545.478	9812
6545.48	9812
6545.482	9812
6545.484	9812
6545.486	9812
6545.488	9813
6545.49	9812
6545.492	9811
6545.494	9812
6545.496	9812
6545.498	9812
6545.5	9811
6545.502	9811
6545.504	9811
6545.506	9810
6545.508	9809
6545.51	9808
6545.512	9807
6545.514	9807
6545.516	9806
6545.518	9805
6545.52	9804
6545.522	9804
6545.524	9804
6545.526	9803
6545.528	9805
6545.53	9805
6545.532	9805
6545.534	9805
6545.536	9805
6545.538	9805
6545.54	9805
6545.542	9805
6545.544	9805
6545.546	9806
6545.548	9806
6545.55	9805
6545.552	9804
6545.554	9805
6545.556	9804
6545.558	9803
6545.56	9801
6545.562	9800
6545.564	9799
6545.566	9798
6545.568	9797
6545.57	9795
6545.572	9793
6545.574	9792
6545.576	9791
6545.578	9789
6545.58	9788
6545.582	9786
6545.584	9784
6545.586	9782
6545.588	9780
6545.59	9778
6545.592	9776
6545.594	9773
6545.596	9770
6545.598	9767
6545.6	9764
6545.602	9762
6545.604	9759
6545.606	9756
6545.608	9752
6545.61	9749
6545.612	9746
6545.614	9743
6545.616	9740
6545.618	9736
6545.62	9734
6545.622	9731
6545.624	9728
6545.626	9725
6545.628	9722
6545.63	9720
6545.632	9717
6545.634	9715
6545.636	9713
6545.638	9712
6545.64	9711
6545.642	9709
6545.644	9708
6545.646	9707
6545.648	9707
6545.65	9707
6545.652	9707
6545.654	9707
6545.656	9707
6545.658	9708
6545.66	9708
6545.662	9709
6545.664	9710
6545.666	9711
6545.668	9713
6545.67	9714
6545.672	9715
6545.674	9716
6545.676	9718
6545.678	9720
6545.68	9720
6545.682	9721
6545.684	9723
6545.686	9726
6545.688	9728
6545.69	9730
6545.692	9732
6545.694	9734
6545.696	9736
6545.698	9738
6545.7	9740
6545.702	9742
6545.704	9744
6545.706	9746
6545.708	9747
6545.71	9748
6545.712	9748
6545.714	9748
6545.716	9747
6545.718	9747
6545.72	9746
6545.722	9744
6545.724	9743
6545.726	9742
6545.728	9739
6545.73	9737
6545.732	9735
6545.734	9732
6545.736	9728
6545.738	9725
6545.74	9722
6545.742	9718
6545.744	9714
6545.746	9709
6545.748	9704
6545.75	9698
6545.752	9693
6545.754	9687
6545.756	9681
6545.758	9676
6545.76	9670
6545.762	9664
6545.764	9659
6545.766	9650
6545.768	9642
6545.77	9636
6545.772	9631
6545.774	9626
6545.776	9622
6545.778	9618
6545.78	9616
6545.782	9615
6545.784	9615
6545.786	9616
6545.788	9618
6545.79	9620
6545.792	9624
6545.794	9628
6545.796	9632
6545.798	9639
6545.8	9647
6545.802	9656
6545.804	9662
6545.806	9668
6545.808	9672
6545.81	9678
6545.812	9684
6545.814	9688
6545.816	9692
6545.818	9697
6545.82	9702
6545.822	9706
6545.824	9709
6545.826	9711
6545.828	9713
6545.83	9716
6545.832	9718
6545.834	9719
6545.836	9721
6545.838	9722
6545.84	9724
6545.842	9725
6545.844	9726
6545.846	9727
6545.848	9728
6545.85	9728
6545.852	9728
6545.854	9728
6545.856	9728
6545.858	9728
6545.86	9729
6545.862	9729
6545.864	9728
6545.866	9728
6545.868	9727
6545.87	9726
6545.872	9724
6545.874	9723
6545.876	9722
6545.878	9721
6545.88	9720
6545.882	9718
6545.884	9716
6545.886	9715
6545.888	9713
6545.89	9712
6545.892	9711
6545.894	9709
6545.896	9708
6545.898	9707
6545.9	9706
6545.902	9705
6545.904	9705
6545.906	9704
6545.908	9703
6545.91	9702
6545.912	9701
6545.914	9701
6545.916	9700
6545.918	9699
6545.92	9698
6545.922	9698
6545.924	9698
6545.926	9697
6545.928	9697
6545.93	9697
6545.932	9696
6545.934	9696
6545.936	9696
6545.938	9695
6545.94	9695
6545.942	9695
6545.944	9694
6545.946	9694
6545.948	9693
6545.95	9692
6545.952	9692
6545.954	9691
6545.956	9690
6545.958	9688
6545.96	9687
6545.962	9686
6545.964	9684
6545.966	9682
6545.968	9680
6545.97	9679
6545.972	9677
6545.974	9675
6545.976	9673
6545.978	9671
6545.98	9670
6545.982	9668
6545.984	9666
6545.986	9665
6545.988	9664
6545.99	9662
6545.992	9660
6545.994	9659
6545.996	9658
6545.998	9656
6546	9655
6546.002	9654
6546.004	9653
6546.006	9651
6546.008	9649
6546.01	9647
6546.012	9647
6546.014	9645
6546.016	9643
6546.018	9641
6546.02	9639
6546.022	9636
6546.024	9635
6546.026	9632
6546.028	9630
6546.03	9626
6546.032	9622
6546.034	9619
6546.036	9615
6546.038	9611
6546.04	9608
6546.042	9603
6546.044	9599
6546.046	9595
6546.048	9591
6546.05	9585
6546.052	9580
6546.054	9575
6546.056	9569
6546.058	9563
6546.06	9556
6546.062	9550
6546.064	9543
6546.066	9536
6546.068	9529
6546.07	9523
6546.072	9515
6546.074	9506
6546.076	9497
6546.078	9488
6546.08	9478
6546.082	9468
6546.084	9457
6546.086	9447
6546.088	9435
6546.09	9422
6546.092	9408
6546.094	9392
6546.096	9377
6546.098	9360
6546.1	9344
6546.102	9326
6546.104	9309
6546.106	9289
6546.108	9269
6546.11	9247
6546.112	9224
6546.114	9198
6546.116	9169
6546.118	9139
6546.12	9107
6546.122	9070
6546.124	9030
6546.126	8985
6546.128	8940
6546.13	8891
6546.132	8838
6546.134	8782
6546.136	8721
6546.138	8656
6546.14	8588
6546.142	8519
6546.144	8448
6546.146	8376
6546.148	8300
6546.15	8214
6546.152	8109
6546.154	8005
6546.156	7900
6546.158	7795
6546.16	7686
6546.162	7574
6546.164	7446
6546.166	7317
6546.168	7186
6546.17	7045
6546.172	6901
6546.174	6754
6546.176	6600
6546.178	6440
6546.18	6280
6546.182	6128
6546.184	5989
6546.186	5835
6546.188	5676
6546.19	5506
6546.192	5345
6546.194	5188
6546.196	5028
6546.198	4870
6546.2	4716
6546.202	4571
6546.204	4427
6546.206	4287
6546.208	4154
6546.21	4024
6546.212	3912
6546.214	3801
6546.216	3691
6546.218	3593
6546.22	3499
6546.222	3415
6546.224	3339
6546.226	3268
6546.228	3206
6546.23	3151
6546.232	3101
6546.234	3060
6546.236	3025
6546.238	3000
6546.24	2980
6546.242	2964
6546.244	2950
6546.246	2942
6546.248	2936
6546.25	2939
6546.252	2945
6546.254	2954
6546.256	2970
6546.258	2989
6546.26	3014
6546.262	3042
6546.264	3076
6546.266	3128
6546.268	3186
6546.27	3253
6546.272	3330
6546.274	3411
6546.276	3500
6546.278	3604
6546.28	3718
6546.282	3858
6546.284	4001
6546.286	4150
6546.288	4313
6546.29	4483
6546.292	4662
6546.294	4841
6546.296	5022
6546.298	5205
6546.3	5387
6546.302	5569
6546.304	5753
6546.306	5937
6546.308	6120
6546.31	6291
6546.312	6456
6546.314	6609
6546.316	6761
6546.318	6911
6546.32	7059
6546.322	7197
6546.324	7319
6546.326	7442
6546.328	7565
6546.33	7687
6546.332	7793
6546.334	7891
6546.336	7977
6546.338	8061
6546.34	8144
6546.342	8223
6546.344	8300
6546.346	8373
6546.348	8442
6546.35	8507
6546.352	8565
6546.354	8620
6546.356	8671
6546.358	8717
6546.36	8761
6546.362	8802
6546.364	8842
6546.366	8883
6546.368	8920
6546.37	8960
6546.372	8999
6546.374	9037
6546.376	9071
6546.378	9101
6546.38	9130
6546.382	9157
6546.384	9180
6546.386	9202
6546.388	9224
6546.39	9243
6546.392	9261
6546.394	9279
6546.396	9297
6546.398	9315
6546.4	9332
6546.402	9348
6546.404	9364
6546.406	9380
6546.408	9395
6546.41	9410
6546.412	9424
6546.414	9439
6546.416	9451
6546.418	9462
6546.42	9473
6546.422	9484
6546.424	9495
6546.426	9503
6546.428	9512
6546.43	9521
6546.432	9529
6546.434	9537
6546.436	9545
6546.438	9552
6546.44	9558
6546.442	9565
6546.444	9572
6546.446	9578
6546.448	9585
6546.45	9590
6546.452	9595
6546.454	9601
6546.456	9605
6546.458	9609
6546.46	9613
6546.462	9617
6546.464	9621
6546.466	9626
6546.468	9629
6546.47	9633
6546.472	9636
6546.474	9639
6546.476	9641
6546.478	9644
6546.48	9646
6546.482	9648
6546.484	9651
6546.486	9654
6546.488	9657
6546.49	9660
6546.492	9662
6546.494	9665
6546.496	9668
6546.498	9670
6546.5	9672
6546.502	9674
6546.504	9676
6546.506	9678
6546.508	9680
6546.51	9681
6546.512	9682
6546.514	9684
6546.516	9685
6546.518	9686
6546.52	9687
6546.522	9688
6546.524	9689
6546.526	9690
6546.528	9690
6546.53	9691
6546.532	9692
6546.534	9692
6546.536	9693
6546.538	9693
6546.54	9693
6546.542	9694
6546.544	9696
6546.546	9697
6546.548	9698
6546.55	9699
6546.552	9700
6546.554	9701
6546.556	9702
6546.558	9703
6546.56	9705
6546.562	9706
6546.564	9707
6546.566	9709
6546.568	9711
6546.57	9712
6546.572	9713
6546.574	9714
6546.576	9716
6546.578	9717
6546.58	9719
6546.582	9721
6546.584	9722
6546.586	9723
6546.588	9724
6546.59	9725
6546.592	9727
6546.594	9727
6546.596	9727
6546.598	9727
6546.6	9729
6546.602	9729
6546.604	9730
6546.606	9730
6546.608	9729
6546.61	9730
6546.612	9731
6546.614	9731
6546.616	9731
6546.618	9731
6546.62	9731
6546.622	9732
6546.624	9732
6546.626	9732
6546.628	9732
6546.63	9732
6546.632	9733
6546.634	9734
6546.636	9734
6546.638	9734
6546.64	9734
6546.642	9735
6546.644	9735
6546.646	9736
6546.648	9735
6546.65	9735
6546.652	9736
6546.654	9735
6546.656	9735
6546.658	9735
6546.66	9736
6546.662	9736
6546.664	9736
6546.666	9736
6546.668	9736
6546.67	9736
6546.672	9737
6546.674	9738
6546.676	9738
6546.678	9739
6546.68	9740
6546.682	9741
6546.684	9742
6546.686	9743
6546.688	9744
6546.69	9745
6546.692	9746
6546.694	9747
6546.696	9748
6546.698	9749
6546.7	9750
6546.702	9752
6546.704	9753
6546.706	9754
6546.708	9755
6546.71	9756
6546.712	9757
6546.714	9757
6546.716	9757
6546.718	9758
6546.72	9759
6546.722	9759
6546.724	9758
6546.726	9758
6546.728	9758
6546.73	9759
6546.732	9759
6546.734	9759
6546.736	9759
6546.738	9759
6546.74	9759
6546.742	9759
6546.744	9760
6546.746	9759
6546.748	9758
6546.75	9759
6546.752	9758
6546.754	9757
6546.756	9756
6546.758	9756
6546.76	9756
6546.762	9756
6546.764	9755
6546.766	9754
6546.768	9753
6546.77	9752
6546.772	9751
6546.774	9751
6546.776	9750
6546.778	9749
6546.78	9749
6546.782	9750
6546.784	9750
6546.786	9750
6546.788	9751
6546.79	9752
6546.792	9752
6546.794	9753
6546.796	9754
6546.798	9754
6546.8	9755
6546.802	9756
6546.804	9756
6546.806	9756
6546.808	9756
6546.81	9757
6546.812	9757
6546.814	9757
6546.816	9758
6546.818	9758
6546.82	9758
6546.822	9759
6546.824	9760
6546.826	9760
6546.828	9760
6546.83	9760
6546.832	9760
6546.834	9761
6546.836	9762
6546.838	9761
6546.84	9762
6546.842	9762
6546.844	9762
6546.846	9762
6546.848	9762
6546.85	9762
6546.852	9761
6546.854	9761
6546.856	9760
6546.858	9759
6546.86	9759
6546.862	9759
6546.864	9759
6546.866	9758
6546.868	9757
6546.87	9757
6546.872	9757
6546.874	9756
6546.876	9755
6546.878	9753
6546.88	9752
6546.882	9751
6546.884	9750
6546.886	9749
6546.888	9747
6546.89	9745
6546.892	9743
6546.894	9741
6546.896	9740
6546.898	9738
6546.9	9736
6546.902	9734
6546.904	9732
6546.906	9730
6546.908	9728
6546.91	9726
6546.912	9724
6546.914	9723
6546.916	9722
6546.918	9721
6546.92	9720
6546.922	9719
6546.924	9719
6546.926	9717
6546.928	9716
6546.93	9715
6546.932	9714
6546.934	9713
6546.936	9713
6546.938	9713
6546.94	9713
6546.942	9713
6546.944	9712
6546.946	9712
6546.948	9712
6546.95	9712
6546.952	9713
6546.954	9713
6546.956	9713
6546.958	9713
6546.96	9714
6546.962	9715
6546.964	9715
6546.966	9716
6546.968	9717
6546.97	9717
6546.972	9717
6546.974	9717
6546.976	9718
6546.978	9719
6546.98	9721
6546.982	9723
6546.984	9724
6546.986	9726
6546.988	9727
6546.99	9728
6546.992	9729
6546.994	9730
6546.996	9731
6546.998	9732
6547	9734
6547.002	9735
6547.004	9736
6547.006	9736
6547.008	9737
6547.01	9738
6547.012	9738
6547.014	9738
6547.016	9739
6547.018	9740
6547.02	9740
6547.022	9740
6547.024	9742
6547.026	9742
6547.028	9742
6547.03	9744
6547.032	9745
6547.034	9746
6547.036	9747
6547.038	9747
6547.04	9748
6547.042	9749
6547.044	9751
6547.046	9753
6547.048	9754
6547.05	9756
6547.052	9758
6547.054	9759
6547.056	9761
6547.058	9762
6547.06	9763
6547.062	9764
6547.064	9765
6547.066	9766
6547.068	9765
6547.07	9766
6547.072	9766
6547.074	9766
6547.076	9766
6547.078	9765
6547.08	9765
6547.082	9765
6547.084	9764
6547.086	9764
6547.088	9764
6547.09	9764
6547.092	9764
6547.094	9764
6547.096	9764
6547.098	9765
6547.1	9765
6547.102	9765
6547.104	9765
6547.106	9765
6547.108	9764
6547.11	9765
6547.112	9765
6547.114	9765
6547.116	9765
6547.118	9765
6547.12	9765
6547.122	9766
6547.124	9766
6547.126	9766
6547.128	9766
6547.13	9766
6547.132	9766
6547.134	9766
6547.136	9765
6547.138	9765
6547.14	9766
6547.142	9767
6547.144	9767
6547.146	9767
6547.148	9767
6547.15	9767
6547.152	9767
6547.154	9767
6547.156	9767
6547.158	9767
6547.16	9768
6547.162	9768
6547.164	9768
6547.166	9768
6547.168	9768
6547.17	9768
6547.172	9769
6547.174	9769
6547.176	9769
6547.178	9769
6547.18	9769
6547.182	9769
6547.184	9769
6547.186	9767
6547.188	9767
6547.19	9767
6547.192	9767
6547.194	9766
6547.196	9765
6547.198	9764
6547.2	9763
6547.202	9762
6547.204	9761
6547.206	9759
6547.208	9758
6547.21	9757
6547.212	9755
6547.214	9753
6547.216	9751
6547.218	9749
6547.22	9746
6547.222	9745
6547.224	9743
6547.226	9740
6547.228	9738
6547.23	9736
6547.232	9734
6547.234	9731
6547.236	9728
6547.238	9725
6547.24	9723
6547.242	9721
6547.244	9718
6547.246	9715
6547.248	9713
6547.25	9711
6547.252	9709
6547.254	9706
6547.256	9704
6547.258	9702
6547.26	9699
6547.262	9697
6547.264	9695
6547.266	9693
6547.268	9692
6547.27	9690
6547.272	9689
6547.274	9688
6547.276	9685
6547.278	9684
6547.28	9683
6547.282	9681
6547.284	9680
6547.286	9679
6547.288	9680
6547.29	9679
6547.292	9678
6547.294	9679
6547.296	9679
6547.298	9679
6547.3	9679
6547.302	9679
6547.304	9681
6547.306	9682
6547.308	9683
6547.31	9684
6547.312	9686
6547.314	9688
6547.316	9688
6547.318	9690
6547.32	9692
6547.322	9694
6547.324	9696
6547.326	9698
6547.328	9701
6547.33	9704
6547.332	9706
6547.334	9708
6547.336	9710
6547.338	9713
6547.34	9715
6547.342	9717
6547.344	9719
6547.346	9722
6547.348	9724
6547.35	9726
6547.352	9728
6547.354	9730
6547.356	9732
6547.358	9733
6547.36	9735
6547.362	9737
6547.364	9737
6547.366	9738
6547.368	9740
6547.37	9741
6547.372	9742
6547.374	9743
6547.376	9744
6547.378	9745
6547.38	9746
6547.382	9748
6547.384	9749
6547.386	9749
6547.388	9749
6547.39	9751
6547.392	9752
6547.394	9752
6547.396	9752
6547.398	9753
6547.4	9754
6547.402	9754
6547.404	9754
6547.406	9754
6547.408	9755
6547.41	9756
6547.412	9755
6547.414	9755
6547.416	9755
6547.418	9755
6547.42	9755
6547.422	9756
6547.424	9756
6547.426	9756
6547.428	9755
6547.43	9755
6547.432	9755
6547.434	9754
6547.436	9754
6547.438	9753
6547.44	9753
6547.442	9753
6547.444	9752
6547.446	9751
6547.448	9750
6547.45	9750
6547.452	9750
6547.454	9749
6547.456	9749
6547.458	9749
6547.46	9748
6547.462	9748
6547.464	9747
6547.466	9745
6547.468	9743
6547.47	9743
6547.472	9741
6547.474	9739
6547.476	9737
6547.478	9735
6547.48	9734
6547.482	9732
6547.484	9730
6547.486	9728
6547.488	9726
6547.49	9724
6547.492	9721
6547.494	9719
6547.496	9717
6547.498	9715
6547.5	9712
6547.502	9709
6547.504	9708
6547.506	9706
6547.508	9704
6547.51	9702
6547.512	9700
6547.514	9697
6547.516	9695
6547.518	9693
6547.52	9691
6547.522	9690
6547.524	9688
6547.526	9686
6547.528	9684
6547.53	9682
6547.532	9680
6547.534	9679
6547.536	9678
6547.538	9676
6547.54	9675
6547.542	9673
6547.544	9671
6547.546	9669
6547.548	9668
6547.55	9667
6547.552	9665
6547.554	9663
6547.556	9662
6547.558	9660
6547.56	9658
6547.562	9656
6547.564	9654
6547.566	9653
6547.568	9652
6547.57	9651
6547.572	9650
6547.574	9649
6547.576	9649
6547.578	9648
6547.58	9648
6547.582	9647
6547.584	9647
6547.586	9647
6547.588	9647
6547.59	9647
6547.592	9648
6547.594	9649
6547.596	9650
6547.598	9650
6547.6	9650
6547.602	9650
6547.604	9650
6547.606	9649
6547.608	9648
6547.61	9648
6547.612	9647
6547.614	9646
6547.616	9644
6547.618	9642
6547.62	9640
6547.622	9637
6547.624	9634
6547.626	9631
6547.628	9628
6547.63	9623
6547.632	9619
6547.634	9614
6547.636	9609
6547.638	9603
6547.64	9597
6547.642	9591
6547.644	9584
6547.646	9577
6547.648	9569
6547.65	9561
6547.652	9552
6547.654	9546
6547.656	9536
6547.658	9527
6547.66	9517
6547.662	9504
6547.664	9489
6547.666	9473
6547.668	9457
6547.67	9440
6547.672	9420
6547.674	9399
6547.676	9376
6547.678	9350
6547.68	9323
6547.682	9299
6547.684	9276
6547.686	9255
6547.688	9237
6547.69	9218
6547.692	9196
6547.694	9182
6547.696	9175
6547.698	9170
6547.7	9170
6547.702	9178
6547.704	9194
6547.706	9212
6547.708	9230
6547.71	9256
6547.712	9286
6547.714	9312
6547.716	9335
6547.718	9358
6547.72	9381
6547.722	9403
6547.724	9423
6547.726	9439
6547.728	9455
6547.73	9471
6547.732	9485
6547.734	9499
6547.736	9510
6547.738	9519
6547.74	9527
6547.742	9534
6547.744	9543
6547.746	9551
6547.748	9559
6547.75	9566
6547.752	9571
6547.754	9575
6547.756	9580
6547.758	9585
6547.76	9589
6547.762	9592
6547.764	9595
6547.766	9598
6547.768	9601
6547.77	9604
6547.772	9605
6547.774	9608
6547.776	9611
6547.778	9613
6547.78	9615
6547.782	9617
6547.784	9620
6547.786	9623
6547.788	9625
6547.79	9628
6547.792	9631
6547.794	9632
6547.796	9635
6547.798	9638
6547.8	9640
6547.802	9643
6547.804	9646
6547.806	9648
6547.808	9650
6547.81	9653
6547.812	9656
6547.814	9658
6547.816	9659
6547.818	9661
6547.82	9663
6547.822	9666
6547.824	9668
6547.826	9671
6547.828	9673
6547.83	9676
6547.832	9678
6547.834	9680
6547.836	9683
6547.838	9686
6547.84	9688
6547.842	9690
6547.844	9693
6547.846	9696
6547.848	9698
6547.85	9701
6547.852	9703
6547.854	9705
6547.856	9707
6547.858	9709
6547.86	9710
6547.862	9710
6547.864	9712
6547.866	9713
6547.868	9714
6547.87	9714
6547.872	9715
6547.874	9716
6547.876	9716
6547.878	9716
6547.88	9716
6547.882	9716
6547.884	9717
6547.886	9718
6547.888	9718
6547.89	9718
6547.892	9720
6547.894	9720
6547.896	9719
6547.898	9720
6547.9	9721
6547.902	9723
6547.904	9723
6547.906	9723
6547.908	9724
6547.91	9726
6547.912	9727
6547.914	9727
6547.916	9727
6547.918	9727
6547.92	9727
6547.922	9728
6547.924	9728
6547.926	9728
6547.928	9728
6547.93	9727
6547.932	9727
6547.934	9727
6547.936	9727
6547.938	9728
6547.94	9728
6547.942	9728
6547.944	9728
6547.946	9729
6547.948	9730
6547.95	9730
6547.952	9730
6547.954	9730
6547.956	9730
6547.958	9731
6547.96	9732
6547.962	9732
6547.964	9733
6547.966	9732
6547.968	9732
6547.97	9734
6547.972	9734
6547.974	9734
6547.976	9735
6547.978	9736
6547.98	9736
6547.982	9736
6547.984	9736
6547.986	9736
6547.988	9737
6547.99	9737
6547.992	9737
6547.994	9737
6547.996	9737
6547.998	9737
